File: NaBiF4_PL_analysis/XRD/NaBiF4.xy
5.00543 1831.0
5.05977 1682.0
5.1141 1735.0
5.16843 1592.0
5.22276 1593.0
5.27709 1466.0
5.33143 1550.0
5.38576 1439.0
5.44009 1387.0
5.49442 1392.0
5.54876 1313.0
5.60309 1242.0
5.65742 1178.0
5.71175 1212.0
5.76608 1215.0
5.82042 1145.0
5.87475 1207.0
5.92908 1117.0
5.98341 1191.0
6.03775 1012.0
6.09208 912.0
6.14641 843.0
6.20074 690.0
6.25507 633.0
6.30941 567.0
6.36374 588.0
6.41807 521.0
6.4724 514.0
6.52673 518.0
6.58107 479.0
6.6354 465.0
6.68973 454.0
6.74406 423.0
6.7984 390.0
6.85273 425.0
6.90706 392.0
6.96139 343.0
7.01572 337.0
7.07006 334.0
7.12439 310.0
7.17872 333.0
7.23305 276.0
7.28739 273.0
7.34172 300.0
7.39605 267.0
7.45038 286.0
7.50471 281.0
7.55905 278.0
7.61338 298.0
7.66771 258.0
7.72204 243.0
7.77638 281.0
7.83071 262.0
7.88504 239.0
7.93937 257.0
7.9937 286.0
8.04804 284.0
8.10237 264.0
8.1567 263.0
8.21103 259.0
8.26537 263.0
8.3197 269.0
8.37403 268.0
8.42836 266.0
8.48269 288.0
8.53703 259.0
8.59136 273.0
8.64569 306.0
8.70002 311.0
8.75436 282.0
8.80869 279.0
8.86302 316.0
8.91735 256.0
8.97168 294.0
9.02602 297.0
9.08035 264.0
9.13468 303.0
9.18901 300.0
9.24334 279.0
9.29768 289.0
9.35201 295.0
9.40634 280.0
9.46067 334.0
9.51501 293.0
9.56934 327.0
9.62367 270.0
9.678 317.0
9.73233 302.0
9.78667 339.0
9.841 304.0
9.89533 315.0
9.94966 296.0
10.004 302.0
10.0583 356.0
10.1127 332.0
10.167 328.0
10.2213 330.0
10.2757 324.0
10.33 346.0
10.3843 313.0
10.4387 325.0
10.493 353.0
10.5473 294.0
10.6016 349.0
10.656 324.0
10.7103 292.0
10.7646 368.0
10.819 313.0
10.8733 328.0
10.9276 339.0
10.982 348.0
11.0363 332.0
11.0906 346.0
11.145 391.0
11.1993 326.0
11.2536 332.0
11.308 355.0
11.3623 330.0
11.4166 324.0
11.471 366.0
11.5253 368.0
11.5796 342.0
11.634 338.0
11.6883 369.0
11.7426 333.0
11.797 357.0
11.8513 392.0
11.9056 378.0
11.96 389.0
12.0143 381.0
12.0686 394.0
12.123 420.0
12.1773 433.0
12.2316 383.0
12.2859 408.0
12.3403 399.0
12.3946 425.0
12.4489 423.0
12.5033 410.0
12.5576 414.0
12.6119 407.0
12.6663 411.0
12.7206 456.0
12.7749 464.0
12.8293 436.0
12.8836 464.0
12.9379 535.0
12.9923 592.0
13.0466 612.0
13.1009 717.0
13.1553 841.0
13.2096 1078.0
13.2639 1300.0
13.3183 1779.0
13.3726 2576.0
13.4269 3922.0
13.4813 5642.0
13.5356 5487.0
13.5899 2760.0
13.6443 1035.0
13.6986 779.0
13.7529 692.0
13.8072 654.0
13.8616 621.0
13.9159 549.0
13.9702 544.0
14.0246 539.0
14.0789 488.0
14.1332 514.0
14.1876 491.0
14.2419 476.0
14.2962 524.0
14.3506 506.0
14.4049 504.0
14.4592 508.0
14.5136 564.0
14.5679 567.0
14.6222 520.0
14.6766 537.0
14.7309 617.0
14.7852 632.0
14.8396 573.0
14.8939 604.0
14.9482 545.0
15.0026 537.0
15.0569 502.0
15.1112 526.0
15.1656 533.0
15.2199 465.0
15.2742 481.0
15.3286 509.0
15.3829 498.0
15.4372 527.0
15.4915 500.0
15.5459 499.0
15.6002 532.0
15.6545 509.0
15.7089 500.0
15.7632 569.0
15.8175 549.0
15.8719 568.0
15.9262 569.0
15.9805 507.0
16.0349 585.0
16.0892 507.0
16.1435 544.0
16.1979 549.0
16.2522 510.0
16.3065 554.0
16.3609 544.0
16.4152 542.0
16.4695 488.0
16.5239 581.0
16.5782 550.0
16.6325 526.0
16.6869 531.0
16.7412 563.0
16.7955 531.0
16.8499 578.0
16.9042 560.0
16.9585 551.0
17.0128 602.0
17.0672 634.0
17.1215 669.0
17.1758 608.0
17.2302 678.0
17.2845 685.0
17.3388 784.0
17.3932 937.0
17.4475 1112.0
17.5018 1476.0
17.5562 2024.0
17.6105 2717.0
17.6648 3336.0
17.7192 2859.0
17.7735 1675.0
17.8278 971.0
17.8822 846.0
17.9365 781.0
17.9908 692.0
18.0452 695.0
18.0995 580.0
18.1538 581.0
18.2082 599.0
18.2625 587.0
18.3168 556.0
18.3712 578.0
18.4255 640.0
18.4798 555.0
18.5342 584.0
18.5885 587.0
18.6428 588.0
18.6971 591.0
18.7515 555.0
18.8058 580.0
18.8601 606.0
18.9145 619.0
18.9688 599.0
19.0231 566.0
19.0775 565.0
19.1318 532.0
19.1861 622.0
19.2405 571.0
19.2948 550.0
19.3491 626.0
19.4035 557.0
19.4578 544.0
19.5121 607.0
19.5665 580.0
19.6208 540.0
19.6751 550.0
19.7295 598.0
19.7838 590.0
19.8381 593.0
19.8925 556.0
19.9468 552.0
20.0011 567.0
20.0555 562.0
20.1098 613.0
20.1641 568.0
20.2184 566.0
20.2728 538.0
20.3271 579.0
20.3814 563.0
20.4358 550.0
20.4901 571.0
20.5444 585.0
20.5988 510.0
20.6531 565.0
20.7074 573.0
20.7618 576.0
20.8161 576.0
20.8704 542.0
20.9248 531.0
20.9791 546.0
21.0334 567.0
21.0878 573.0
21.1421 518.0
21.1964 589.0
21.2508 581.0
21.3051 536.0
21.3594 593.0
21.4138 554.0
21.4681 579.0
21.5224 556.0
21.5768 538.0
21.6311 566.0
21.6854 539.0
21.7398 522.0
21.7941 563.0
21.8484 524.0
21.9027 498.0
21.9571 597.0
22.0114 517.0
22.0657 535.0
22.1201 564.0
22.1744 567.0
22.2287 550.0
22.2831 541.0
22.3374 536.0
22.3917 538.0
22.4461 540.0
22.5004 533.0
22.5547 535.0
22.6091 512.0
22.6634 522.0
22.7177 610.0
22.7721 558.0
22.8264 573.0
22.8807 536.0
22.9351 555.0
22.9894 540.0
23.0437 541.0
23.0981 578.0
23.1524 514.0
23.2067 552.0
23.2611 566.0
23.3154 534.0
23.3697 510.0
23.424 520.0
23.4784 580.0
23.5327 537.0
23.587 558.0
23.6414 569.0
23.6957 621.0
23.75 558.0
23.8044 561.0
23.8587 570.0
23.913 567.0
23.9674 611.0
24.0217 673.0
24.076 622.0
24.1304 710.0
24.1847 810.0
24.239 1118.0
24.2934 1721.0
24.3477 3090.0
24.402 6332.0
24.4564 10840.0
24.5107 9013.0
24.565 3953.0
24.6194 1338.0
24.6737 920.0
24.728 823.0
24.7824 752.0
24.8367 728.0
24.891 630.0
24.9454 601.0
24.9997 545.0
25.054 533.0
25.1083 497.0
25.1627 547.0
25.217 513.0
25.2713 508.0
25.3257 534.0
25.38 547.0
25.4343 515.0
25.4887 516.0
25.543 564.0
25.5973 559.0
25.6517 515.0
25.706 577.0
25.7603 531.0
25.8147 562.0
25.869 561.0
25.9233 550.0
25.9777 498.0
26.032 571.0
26.0863 578.0
26.1407 567.0
26.195 539.0
26.2493 590.0
26.3037 679.0
26.358 811.0
26.4123 1122.0
26.4667 1646.0
26.521 3039.0
26.5753 4707.0
26.6296 3836.0
26.684 2137.0
26.7383 954.0
26.7926 707.0
26.847 694.0
26.9013 654.0
26.9556 641.0
27.01 578.0
27.0643 605.0
27.1186 597.0
27.173 643.0
27.2273 775.0
27.2816 826.0
27.336 808.0
27.3903 772.0
27.4446 713.0
27.499 786.0
27.5533 757.0
27.6076 789.0
27.662 770.0
27.7163 700.0
27.7706 718.0
27.825 822.0
27.8793 800.0
27.9336 681.0
27.988 615.0
28.0423 600.0
28.0966 656.0
28.151 675.0
28.2053 844.0
28.2596 1185.0
28.3139 1477.0
28.3683 1158.0
28.4226 870.0
28.4769 659.0
28.5313 630.0
28.5856 564.0
28.6399 577.0
28.6943 586.0
28.7486 547.0
28.8029 521.0
28.8573 516.0
28.9116 517.0
28.9659 574.0
29.0203 588.0
29.0746 566.0
29.1289 613.0
29.1833 695.0
29.2376 843.0
29.2919 660.0
29.3463 587.0
29.4006 547.0
29.4549 535.0
29.5093 550.0
29.5636 585.0
29.6179 528.0
29.6723 602.0
29.7266 612.0
29.7809 652.0
29.8352 690.0
29.8896 693.0
29.9439 666.0
29.9982 696.0
30.0526 769.0
30.1069 773.0
30.1612 809.0
30.2156 980.0
30.2699 1326.0
30.3242 2214.0
30.3786 3886.0
30.4329 4878.0
30.4872 3553.0
30.5416 2468.0
30.5959 2151.0
30.6502 3400.0
30.7046 6510.0
30.7589 14321.0
30.8132 29996.0
30.8676 28946.0
30.9219 17574.0
30.9762 5955.0
31.0306 2746.0
31.0849 2612.0
31.1392 3139.0
31.1936 4351.0
31.2479 6005.0
31.3022 5897.0
31.3566 4582.0
31.4109 3075.0
31.4652 2092.0
31.5195 1564.0
31.5739 1362.0
31.6282 1103.0
31.6825 962.0
31.7369 853.0
31.7912 781.0
31.8455 701.0
31.8999 699.0
31.9542 667.0
32.0085 642.0
32.0629 598.0
32.1172 643.0
32.1715 662.0
32.2259 596.0
32.2802 635.0
32.3345 665.0
32.3889 614.0
32.4432 628.0
32.4975 641.0
32.5519 620.0
32.6062 630.0
32.6605 580.0
32.7149 607.0
32.7692 584.0
32.8235 585.0
32.8779 642.0
32.9322 603.0
32.9865 726.0
33.0408 768.0
33.0952 1105.0
33.1495 1942.0
33.2038 4120.0
33.2582 8841.0
33.3125 10606.0
33.3668 6834.0
33.4212 3436.0
33.4755 1235.0
33.5298 953.0
33.5842 762.0
33.6385 783.0
33.6928 684.0
33.7472 617.0
33.8015 575.0
33.8558 562.0
33.9102 543.0
33.9645 534.0
34.0188 515.0
34.0732 588.0
34.1275 606.0
34.1818 623.0
34.2362 681.0
34.2905 831.0
34.3448 863.0
34.3992 768.0
34.4535 640.0
34.5078 581.0
34.5622 516.0
34.6165 516.0
34.6708 543.0
34.7251 547.0
34.7795 514.0
34.8338 573.0
34.8881 555.0
34.9425 583.0
34.9968 583.0
35.0511 753.0
35.1055 851.0
35.1598 954.0
35.2141 884.0
35.2685 813.0
35.3228 717.0
35.3771 623.0
35.4315 628.0
35.4858 525.0
35.5401 632.0
35.5945 586.0
35.6488 622.0
35.7031 620.0
35.7575 796.0
35.8118 1171.0
35.8661 1985.0
35.9205 1842.0
35.9748 1421.0
36.0291 918.0
36.0835 725.0
36.1378 584.0
36.1921 576.0
36.2464 572.0
36.3008 504.0
36.3551 508.0
36.4094 504.0
36.4638 528.0
36.5181 456.0
36.5724 481.0
36.6268 498.0
36.6811 516.0
36.7354 429.0
36.7898 468.0
36.8441 528.0
36.8984 460.0
36.9528 474.0
37.0071 482.0
37.0614 522.0
37.1158 478.0
37.1701 487.0
37.2244 459.0
37.2788 493.0
37.3331 504.0
37.3874 524.0
37.4418 511.0
37.4961 492.0
37.5504 538.0
37.6048 509.0
37.6591 482.0
37.7134 520.0
37.7677 533.0
37.8221 559.0
37.8764 540.0
37.9307 517.0
37.9851 576.0
38.0394 696.0
38.0937 611.0
38.1481 661.0
38.2024 624.0
38.2567 571.0
38.3111 562.0
38.3654 559.0
38.4197 493.0
38.4741 515.0
38.5284 515.0
38.5827 574.0
38.6371 525.0
38.6914 465.0
38.7457 506.0
38.8001 483.0
38.8544 497.0
38.9087 459.0
38.9631 516.0
39.0174 503.0
39.0717 463.0
39.1261 501.0
39.1804 479.0
39.2347 500.0
39.2891 529.0
39.3434 496.0
39.3977 507.0
39.452 499.0
39.5064 498.0
39.5607 510.0
39.615 498.0
39.6694 572.0
39.7237 567.0
39.778 659.0
39.8324 814.0
39.8867 1185.0
39.941 2130.0
39.9954 3571.0
40.0497 3366.0
40.104 2652.0
40.1584 1757.0
40.2127 989.0
40.267 733.0
40.3214 719.0
40.3757 596.0
40.43 545.0
40.4844 521.0
40.5387 568.0
40.593 530.0
40.6474 598.0
40.7017 606.0
40.756 714.0
40.8104 933.0
40.8647 1365.0
40.919 1223.0
40.9733 985.0
41.0277 758.0
41.082 518.0
41.1363 471.0
41.1907 495.0
41.245 471.0
41.2993 468.0
41.3537 503.0
41.408 464.0
41.4623 511.0
41.5167 472.0
41.571 503.0
41.6253 507.0
41.6797 460.0
41.734 457.0
41.7883 474.0
41.8427 481.0
41.897 491.0
41.9513 478.0
42.0057 471.0
42.06 484.0
42.1143 494.0
42.1687 491.0
42.223 492.0
42.2773 491.0
42.3317 494.0
42.386 552.0
42.4403 483.0
42.4947 563.0
42.549 652.0
42.6033 805.0
42.6576 1051.0
42.712 2048.0
42.7663 4618.0
42.8206 7138.0
42.875 5162.0
42.9293 4110.0
42.9836 2205.0
43.038 1003.0
43.0923 770.0
43.1466 734.0
43.201 650.0
43.2553 589.0
43.3096 590.0
43.364 566.0
43.4183 545.0
43.4726 547.0
43.527 627.0
43.5813 658.0
43.6356 763.0
43.69 891.0
43.7443 1143.0
43.7986 1694.0
43.853 2710.0
43.9073 3434.0
43.9616 2992.0
44.016 2517.0
44.0703 1841.0
44.1246 1335.0
44.1789 1073.0
44.2333 900.0
44.2876 759.0
44.3419 694.0
44.3963 651.0
44.4506 624.0
44.5049 523.0
44.5593 559.0
44.6136 450.0
44.6679 502.0
44.7223 466.0
44.7766 462.0
44.8309 470.0
44.8853 517.0
44.9396 514.0
44.9939 489.0
45.0483 483.0
45.1026 460.0
45.1569 490.0
45.2113 511.0
45.2656 556.0
45.3199 581.0
45.3743 675.0
45.4286 706.0
45.4829 656.0
45.5373 562.0
45.5916 536.0
45.6459 528.0
45.7003 485.0
45.7546 490.0
45.8089 488.0
45.8632 508.0
45.9176 497.0
45.9719 516.0
46.0262 492.0
46.0806 503.0
46.1349 454.0
46.1892 497.0
46.2436 511.0
46.2979 510.0
46.3522 510.0
46.4066 498.0
46.4609 551.0
46.5152 480.0
46.5696 543.0
46.6239 551.0
46.6782 565.0
46.7326 590.0
46.7869 623.0
46.8412 746.0
46.8956 821.0
46.9499 758.0
47.0042 716.0
47.0586 637.0
47.1129 579.0
47.1672 610.0
47.2216 614.0
47.2759 690.0
47.3302 901.0
47.3845 1371.0
47.4389 2748.0
47.4932 5342.0
47.5475 4268.0
47.6019 3172.0
47.6562 2766.0
47.7105 1179.0
47.7649 792.0
47.8192 708.0
47.8735 659.0
47.9279 598.0
47.9822 585.0
48.0365 549.0
48.0909 572.0
48.1452 575.0
48.1995 491.0
48.2539 495.0
48.3082 519.0
48.3625 469.0
48.4169 504.0
48.4712 500.0
48.5255 468.0
48.5799 528.0
48.6342 499.0
48.6885 472.0
48.7429 494.0
48.7972 505.0
48.8515 496.0
48.9059 520.0
48.9602 534.0
49.0145 594.0
49.0688 647.0
49.1232 579.0
49.1775 561.0
49.2318 566.0
49.2862 597.0
49.3405 705.0
49.3948 1168.0
49.4492 1852.0
49.5035 1391.0
49.5578 1203.0
49.6122 1090.0
49.6665 715.0
49.7208 643.0
49.7752 595.0
49.8295 525.0
49.8838 549.0
49.9382 569.0
49.9925 515.0
50.0468 483.0
50.1012 542.0
50.1555 515.0
50.2098 523.0
50.2642 516.0
50.3185 546.0
50.3728 511.0
50.4272 537.0
50.4815 542.0
50.5358 536.0
50.5901 587.0
50.6445 662.0
50.6988 735.0
50.7531 716.0
50.8075 819.0
50.8618 794.0
50.9161 701.0
50.9705 688.0
51.0248 617.0
51.0791 593.0
51.1335 547.0
51.1878 558.0
51.2421 532.0
51.2965 518.0
51.3508 505.0
51.4051 525.0
51.4595 523.0
51.5138 538.0
51.5681 509.0
51.6225 586.0
51.6768 499.0
51.7311 516.0
51.7855 493.0
51.8398 539.0
51.8941 536.0
51.9485 596.0
52.0028 534.0
52.0571 585.0
52.1115 568.0
52.1658 591.0
52.2201 651.0
52.2744 721.0
52.3288 731.0
52.3831 837.0
52.4374 1100.0
52.4918 1336.0
52.5461 1744.0
52.6004 2657.0
52.6548 4597.0
52.7091 6227.0
52.7634 4239.0
52.8178 4619.0
52.8721 5410.0
52.9264 4665.0
52.9808 2959.0
53.0351 2669.0
53.0894 2141.0
53.1438 1272.0
53.1981 957.0
53.2524 903.0
53.3068 859.0
53.3611 927.0
53.4154 1143.0
53.4698 1442.0
53.5241 1819.0
53.5784 1710.0
53.6328 1428.0
53.6871 1320.0
53.7414 1296.0
53.7957 1652.0
53.8501 2788.0
53.9044 3584.0
53.9587 3343.0
54.0131 3638.0
54.0674 3792.0
54.1217 2780.0
54.1761 2416.0
54.2304 1868.0
54.2847 1449.0
54.3391 1048.0
54.3934 891.0
54.4477 776.0
54.5021 679.0
54.5564 681.0
54.6107 627.0
54.6651 647.0
54.7194 567.0
54.7737 700.0
54.8281 711.0
54.8824 909.0
54.9367 1464.0
54.9911 2232.0
55.0454 1639.0
55.0997 1356.0
55.1541 1380.0
55.2084 848.0
55.2627 757.0
55.3171 648.0
55.3714 721.0
55.4257 687.0
55.48 725.0
55.5344 773.0
55.5887 860.0
55.643 908.0
55.6974 871.0
55.7517 841.0
55.806 856.0
55.8604 777.0
55.9147 708.0
55.969 703.0
56.0234 713.0
56.0777 635.0
56.132 649.0
56.1864 608.0
56.2407 563.0
56.295 588.0
56.3494 647.0
56.4037 623.0
56.458 663.0
56.5124 638.0
56.5667 607.0
56.621 559.0
56.6754 572.0
56.7297 572.0
56.784 590.0
56.8384 557.0
56.8927 591.0
56.947 573.0
57.0013 562.0
57.0557 612.0
57.11 632.0
57.1643 820.0
57.2187 1022.0
57.273 1538.0
57.3273 3073.0
57.3817 5903.0
57.436 7011.0
57.4903 4660.0
57.5447 4133.0
57.599 3741.0
57.6533 2020.0
57.7077 1127.0
57.762 921.0
57.8163 809.0
57.8707 730.0
57.925 610.0
57.9793 596.0
58.0337 508.0
58.088 531.0
58.1423 557.0
58.1967 538.0
58.251 505.0
58.3053 495.0
58.3597 468.0
58.414 473.0
58.4683 513.0
58.5227 483.0
58.577 499.0
58.6313 489.0
58.6856 466.0
58.74 464.0
58.7943 468.0
58.8486 446.0
58.903 559.0
58.9573 503.0
59.0116 527.0
59.066 494.0
59.1203 479.0
59.1746 484.0
59.229 460.0
59.2833 527.0
59.3376 441.0
59.392 492.0
59.4463 511.0
59.5006 447.0
59.555 481.0
59.6093 470.0
59.6636 473.0
59.718 481.0
59.7723 469.0
59.8266 460.0
59.881 468.0
59.9353 449.0
59.9896 447.0
60.044 481.0
60.0983 473.0
60.1526 441.0
60.2069 450.0
60.2613 492.0
60.3156 544.0
60.3699 452.0
60.4243 476.0
60.4786 508.0
60.5329 501.0
60.5873 478.0
60.6416 455.0
60.6959 448.0
60.7503 518.0
60.8046 482.0
60.8589 481.0
60.9133 481.0
60.9676 485.0
61.0219 494.0
61.0763 480.0
61.1306 499.0
61.1849 505.0
61.2393 511.0
61.2936 518.0
61.3479 565.0
61.4023 615.0
61.4566 664.0
61.5109 771.0
61.5653 888.0
61.6196 958.0
61.6739 927.0
61.7283 851.0
61.7826 893.0
61.8369 685.0
61.8912 671.0
61.9456 607.0
61.9999 600.0
62.0542 586.0
62.1086 549.0
62.1629 547.0
62.2172 524.0
62.2716 537.0
62.3259 516.0
62.3802 587.0
62.4346 677.0
62.4889 768.0
62.5432 801.0
62.5976 727.0
62.6519 718.0
62.7062 707.0
62.7606 585.0
62.8149 555.0
62.8692 478.0
62.9236 444.0
62.9779 467.0
63.0322 509.0
63.0866 458.0
63.1409 519.0
63.1952 490.0
63.2496 594.0
63.3039 712.0
63.3582 1005.0
63.4125 1781.0
63.4669 2405.0
63.5212 1756.0
63.5755 1369.0
63.6299 1528.0
63.6842 1228.0
63.7385 761.0
63.7929 656.0
63.8472 559.0
63.9015 561.0
63.9559 596.0
64.0102 691.0
64.0645 738.0
64.1189 769.0
64.1732 681.0
64.2275 625.0
64.2819 675.0
64.3362 666.0
64.3905 609.0
64.4449 619.0
64.4992 729.0
64.5535 712.0
64.6079 732.0
64.6622 677.0
64.7165 713.0
64.7709 657.0
64.8252 583.0
64.8795 553.0
64.9338 528.0
64.9882 526.0
65.0425 463.0
65.0968 498.0
65.1512 527.0
65.2055 557.0
65.2598 574.0
65.3142 622.0
65.3685 612.0
65.4228 583.0
65.4772 588.0
65.5315 537.0
65.5858 503.0
65.6402 520.0
65.6945 528.0
65.7488 499.0
65.8032 465.0
65.8575 528.0
65.9118 466.0
65.9662 452.0
66.0205 491.0
66.0748 507.0
66.1292 520.0
66.1835 559.0
66.2378 708.0
66.2922 867.0
66.3465 1233.0
66.4008 2065.0
66.4552 2099.0
66.5095 1423.0
66.5638 1257.0
66.6181 1416.0
66.6725 1016.0
66.7268 669.0
66.7811 536.0
66.8355 510.0
66.8898 500.0
66.9441 440.0
66.9985 490.0
67.0528 436.0
67.1071 485.0
67.1615 441.0
67.2158 503.0
67.2701 452.0
67.3245 455.0
67.3788 450.0
67.4331 449.0
67.4875 444.0
67.5418 429.0
67.5961 465.0
67.6505 462.0
67.7048 433.0
67.7591 494.0
67.8135 460.0
67.8678 443.0
67.9221 460.0
67.9765 457.0
68.0308 485.0
68.0851 470.0
68.1394 456.0
68.1938 445.0
68.2481 474.0
68.3024 460.0
68.3568 490.0
68.4111 429.0
68.4654 448.0
68.5198 452.0
68.5741 474.0
68.6284 491.0
68.6828 498.0
68.7371 509.0
68.7914 525.0
68.8458 673.0
68.9001 865.0
68.9544 1103.0
69.0088 1332.0
69.0631 1552.0
69.1174 1558.0
69.1718 1308.0
69.2261 1085.0
69.2804 1043.0
69.3348 920.0
69.3891 727.0
69.4434 719.0
69.4978 573.0
69.5521 617.0
69.6064 632.0
69.6608 582.0
69.7151 509.0
69.7694 494.0
69.8237 518.0
69.8781 488.0
69.9324 441.0
69.9867 480.0
70.0411 460.0
70.0954 503.0
70.1497 448.0
70.2041 433.0
70.2584 467.0
70.3127 487.0
70.3671 447.0
70.4214 464.0
70.4757 495.0
70.5301 582.0
70.5844 674.0
70.6387 739.0
70.6931 696.0
70.7474 724.0
70.8017 659.0
70.8561 649.0
70.9104 565.0
70.9647 583.0
71.0191 522.0
71.0734 566.0
71.1277 632.0
71.1821 747.0
71.2364 825.0
71.2907 811.0
71.345 808.0
71.3994 818.0
71.4537 760.0
71.508 734.0
71.5624 698.0
71.6167 621.0
71.671 570.0
71.7254 571.0
71.7797 531.0
71.834 534.0
71.8884 495.0
71.9427 468.0
71.997 492.0
72.0514 486.0
72.1057 502.0
72.16 472.0
72.2144 482.0
72.2687 500.0
72.323 470.0
72.3774 526.0
72.4317 503.0
72.486 518.0
72.5404 592.0
72.5947 576.0
72.649 584.0
72.7034 611.0
72.7577 629.0
72.812 617.0
72.8664 570.0
72.9207 565.0
72.975 575.0
73.0293 540.0
73.0837 550.0
73.138 556.0
73.1923 579.0
73.2467 635.0
73.301 830.0
73.3553 1213.0
73.4097 1987.0
73.464 2053.0
73.5183 1438.0
73.5727 1156.0
73.627 1382.0
73.6813 1312.0
73.7357 893.0
73.79 621.0
73.8443 561.0
73.8987 532.0
73.953 520.0
74.0073 495.0
74.0617 485.0
74.116 488.0
74.1703 577.0
74.2247 747.0
74.279 749.0
74.3333 652.0
74.3877 612.0
74.442 579.0
74.4963 654.0
74.5506 592.0
74.605 486.0
74.6593 523.0
74.7136 480.0
74.768 464.0
74.8223 484.0
74.8766 472.0
74.931 492.0
74.9853 558.0
75.0396 579.0
75.094 656.0
75.1483 842.0
75.2026 855.0
75.257 785.0
75.3113 698.0
75.3656 707.0
75.42 676.0
75.4743 662.0
75.5286 516.0
75.583 490.0
75.6373 472.0
75.6916 502.0
75.746 450.0
75.8003 489.0
75.8546 490.0
75.909 460.0
75.9633 516.0
76.0176 456.0
76.072 483.0
76.1263 437.0
76.1806 476.0
76.2349 459.0
76.2893 478.0
76.3436 450.0
76.3979 518.0
76.4523 462.0
76.5066 471.0
76.5609 547.0
76.6153 478.0
76.6696 447.0
76.7239 505.0
76.7783 484.0
76.8326 514.0
76.8869 518.0
76.9413 536.0
76.9956 525.0
77.0499 596.0
77.1043 687.0
77.1586 908.0
77.2129 1399.0
77.2673 1718.0
77.3216 1199.0
77.3759 954.0
77.4303 1043.0
77.4846 1178.0
77.5389 941.0
77.5933 747.0
77.6476 624.0
77.7019 650.0
77.7562 671.0
77.8106 766.0
77.8649 742.0
77.9192 742.0
77.9736 777.0
78.0279 705.0
78.0822 686.0
78.1366 698.0
78.1909 713.0
78.2452 680.0
78.2996 777.0
78.3539 983.0
78.4082 1258.0
78.4626 1591.0
78.5169 1658.0
78.5712 1777.0
78.6256 1579.0
78.6799 1384.0
78.7342 1269.0
78.7886 1225.0
78.8429 1020.0
78.8972 829.0
78.9516 761.0
79.0059 759.0
79.0602 769.0
79.1146 682.0
79.1689 678.0
79.2232 632.0
79.2776 632.0
79.3319 599.0
79.3862 568.0
79.4405 546.0
79.4949 484.0
79.5492 557.0
79.6035 473.0
79.6579 561.0
79.7122 505.0
79.7665 478.0
79.8209 500.0
79.8752 527.0
79.9295 536.0
79.9839 575.0
79.9947 607.0